Folder: Make_My_route/battery-analytics-lab/data/raw/calce

Note: battery-analytics-lab/data/raw/calce/extraction_report.json
{
  "extraction_metadata": {
    "extraction_timestamp": "2025-12-29T18:18:48.858456",
    "source_directory": "/home/sanket/Make_My_route/DATA/CS2_35",
    "output_directory": "/home/sanket/Make_My_route/battery-analytics-lab/data/raw/calce",
    "files_processed": [],
    "total_features_extracted": 0,
    "extraction_summary": {}
  },
  "extraction_summary": {
    "files_discovered": 25,
    "files_processed": 25,
    "total_csv_files_created": 65,
    "total_features_extracted": 1225,
    "extraction_details": {
      "CS2_35_10_15_10.xlsx": {
        "csv_files_created": 2,
        "csv_file_paths": [
          "/home/sanket/Make_My_route/battery-analytics-lab/data/raw/calce/CS2_35_10_15_10_Info.csv",
          "/home/sanket/Make_My_route/battery-analytics-lab/data/raw/calce/CS2_35_10_15_10_Channel_1-008.csv"
        ],
        "metadata_file": "/home/sanket/Make_My_route/battery-analytics-lab/data/raw/calce/metadata/CS2_35_10_15_10_extraction_metadata.json",
        "status": "success"
      },
      "CS2_35_10_22_10.xlsx": {
        "csv_files_created": 2,
        "csv_file_paths": [
          "/home/sanket/Make_My_route/battery-analytics-lab/data/raw/calce/CS2_35_10_22_10_Info.csv",
          "/home/sanket/Make_My_route/battery-analytics-lab/data/raw/calce/CS2_35_10_22_10_Channel_1-008.csv"
        ],
        "metadata_file": "/home/sanket/Make_My_route/battery-analytics-lab/data/raw/calce/metadata/CS2_35_10_22_10_extraction_metadata.json",
        "status": "success"
      },
      "CS2_35_10_29_10.xlsx": {
        "csv_files_created": 3,
        "csv_file_paths": [
          "/home/sanket/Make_My_route/battery-analytics-lab/data/raw/calce/CS2_35_10_29_10_Info.csv",
          "/home/sanket/Make_My_route/battery-analytics-lab/data/raw/calce/CS2_35_10_29_10_Channel_1-008.csv",
          "/home/sanket/Make_My_route/battery-analytics-lab/data/raw/calce/CS2_35_10_29_10_Statistics_1-008.csv"
        ],
        "metadata_file": "/home/sanket/Make_My_route/battery-analytics-lab/data/raw/calce/metadata/CS2_35_10_29_10_extraction_metadata.json",
        "status": "success"
      },
      "CS2_35_11_01_10.xlsx": {
        "csv_files_created": 3,
        "csv_file_paths": [
          "/home/sanket/Make_My_route/battery-analytics-lab/data/raw/calce/CS2_35_11_01_10_Info.csv",
          "/home/sanket/Make_My_route/battery-analytics-lab/data/raw/calce/CS2_35_11_01_10_Channel_1-008.csv",
          "/home/sanket/Make_My_route/battery-analytics-lab/data/raw/calce/CS2_35_11_01_10_Statistics_1-008.csv"
        ],
        "metadata_file": "/home/sanket/Make_My_route/battery-analytics-lab/data/raw/calce/metadata/CS2_35_11_01_10_extraction_metadata.json",
        "status": "success"
      },
      "CS2_35_11_08_10.xlsx": {
        "csv_files_created": 3,
        "csv_file_paths": [
          "/home/sanket/Make_My_route/battery-analytics-lab/data/raw/calce/CS2_35_11_08_10_Info.csv",
          "/home/sanket/Make_My_route/battery-analytics-lab/data/raw/calce/CS2_3

Note: README.md
Virtual Campus Navigator is an intelligent Python-based web application built using Flask, Folium, and NetworkX. It helps students, visitors, and faculty easily navigate the campus by showing the shortest path between two selected campus locations on an interactive map.

File: CS2_35_1_10_11_Statistics_1-008.csv
Cycle_Index,Test_Time(s),Date_Time,Current(A),Voltage(V),Charge_Capacity(Ah),Discharge_Capacity(Ah),Charge_Energy(Wh),Discharge_Energy(Wh),Internal_Resistance(Ohm),AC_Impedance(Ohm),ACI_Phase_Angle(Deg),Charge_Time(s),DisCharge_Time(s),Vmax_On_Cycle(V)
1,4500.09,2011-01-03 11:52:56,0.000341975,3.40447,0.0475726,0.884058,0.199787,3.21946,0.0946487,0,0,1246.14,2893.89,4.20046
2,14919.9,2011-01-03 14:46:37,0.000703194,3.41483,0.925134,1.75401,3.71339,6.38614,0.0954577,0,0,7212.01,2847.75,4.20014
3,25327.2,2011-01-03 17:40:06,0.000341975,3.46097,1.78872,2.59827,7.17443,9.439,0.0986045,0,0,7283.32,2763.93,4.20014
4,35662,2011-01-03 20:32:22,0.000522585,3.47861,2.62905,3.42869,10.5552,12.431,0.0978845,0,0,7255.65,2719,4.20014
5,45912,2011-01-03 23:23:13,0.000703194,3.44721,3.46086,4.27032,13.904,15.4782,0.0964407,0,0,7134.6,2755.32,4.20014
6,56176.9,2011-01-04 02:14:19,0.000341975,3.44251,4.30216,5.11266,17.2839,18.5306,0.0971633,0,0,7147.31,2757.55,4.20014
7,66430.8,2011-01-04 05:05:14,0.000161366,3.44381,5.14369,5.95301,20.6639,21.5766,0.097973,0,0,7142.78,2751.07,4.20014
8,76714.6,2011-01-04 07:56:39,0.000522585,3.4927,5.97879,6.76908,24.0233,24.5124,0.100221,0,0,7251.59,2672.07,4.2003
9,83594.4,2011-01-04 09:51:20,0.000341975,3.50371,6.63767,7.44036,26.6547,26.897,0.0989615,0,0,4321.9,2197.81,4.20014
10,93973.4,2011-01-04 12:44:21,0.000883803,3.5084,7.46064,8.24263,29.9758,29.7756,0.0996824,0,0,7391.97,2626.99,4.2003
11,104153,2011-01-04 15:34:02,0.000341975,3.51439,8.2631,9.04009,33.2163,32.6335,0.100402,0,0,7208.47,2611.2,4.2003
12,114270,2011-01-04 18:22:40,0.000522585,3.51795,9.06029,9.83417,36.4365,35.4787,0.100584,0,0,7156.72,2600.13,4.2003
13,124390,2011-01-04 21:11:21,0.000883803,3.51989,9.85297,10.6248,39.64,38.308,0.0995924,0,0,7171.02,2588.83,4.2003
14,134437,2011-01-04 23:58:49,0.000161366,3.49156,10.6468,11.4288,42.8448,41.202,0.0987827,0,0,7054.75,2631.96,4.20014
15,144519,2011-01-05 02:46:52,0.000522585,3.48493,11.4514,12.236,46.0881,44.1117,0.0995025,0,0,7079.26,2642.74,4.20014
16,154575,2011-01-05 05:34:30,0.000883803,3.50257,12.2588,13.0362,49.3408,46.9935,0.100402,0,0,7076.12,2620.23,4.20014
17,164649,2011-01-05 08:22:25,0.000703194,3.53139,13.0542,13.8195,52.5525,49.7965,0.101212,0,0,7149.19,2564.64,4.2003
18,174680,2011-01-05 11:09:37,0.000161366,3.53236,13.8367,14.6,55.7166,52.589,0.100402,0,0,7115.44,2555.6,4.2003
19,184684,2011-01-05 13:56:23,0.000883803,3.53867,14.6166,15.3763,58.8701,55.3646,0.0996824,0,0,7101.83,2542.1,4.2003
20,194669,2011-01-05 16:42:48,0.000703194,3.54078,15.3926,16.1501,62.0092,58.1308,0.101212,0,0,7090.66,2533.75,4.2003
21,204603,2011-01-05 19:28:24,0.000522585,3.55907,16.1651,16.9134,65.1351,60.8509,0.100584,0,0,7074.52,2499.38,4.2003
22,214622,2011-01-05 22:15:24,0.000883803,3.52702,16.9295,17.6901,68.2321,63.6327,0.0996824,0,0,7116.13,2542.85,4.2003
23,224563,2011-01-06 01:01:07,0.000883803,3.51569,17.7084,18.4734,71.379,66.4461,0.098872,0,0,7016.56,2564.81,4.20014
24,234514,2011-01-06 03:46:59,0.000522585,3.50872,18.4925,19.2601,74.5447,69.2751,0.0995924,0,0,7015.03,2575.85,4.20014
25,244386,2011-01-06 06:31:32,0.000703194,3.55001,19.2764,20.027,77.7072,72.0153,0.101212,0,0,7000.77,2510.97,4.2003
26,254284,2011-01-06 09:16:31,0.000883803,3.5636,20.0409,20.7837,80.8024,74.7113,0.100675,0,0,7060.08,2478.11,4.2003
27,264140,2011-01-06 12:00:48,0.000703194,3.55875,20.7977,21.541,83.8693,77.4117,0.102021,0,0,7015.74,2479.94,4.2003
28,273991,2011-01-06 14:45:00,0.000703194,3.56182,21.5548,22.2955,86.9364,80.1006,0.100675,0,0,7020.1,2470.62,4.2003
29,283800,2011-01-06 17:28:31,0.000883803,3.55988,22.3093,23.0475,89.9937,82.7813,0.101303,0,0,6986.83,2462.33,4.2003
30,293616,2011-01-06 20:12:08,0.000703194,3.56587,23.0602,23.7969,93.0368,85.4491,0.101303,0,0,7001.27,2454.15,4.2003
31,303425,2011-01-06 22:55:38,0.00106441,3.56895,23.8093,24.5409,96.0739,88.0957,0.102831,0,0,7013.1,2436.19,4.2003
32,313203,2011-01-07 01:38:38,0.000703194,3.57089,24.5529,25.2828,99.0902,90.734,0.100584,0,0,6988.66,2429.5,4.2003
33,322975,2011-01-07 04:21:31,0.000883803,3.57121,25.2945,26.026,102.099,93.3766,0.103547,0,0,6978.16,2433.43,4.2003
34,332748,2011-01-07 07:04:25,0.000883803,3.57316,26.0376,26.7645,105.113,96.0019,0.102831,0,0,6994.3,2418.41,4.2003
35,342487,2011-01-07 09:46:45,0.000883803,3.57332,26.7759,27.5022,108.109,98.6237,0.101303,0,0,6963.51,2415.55,4.2003
36,352218,2011-01-07 12:28:58,0.000341975,3.56733,27.5147,28.2458,111.105,101.271,0.102021,0,0,6936.45,2435.18,4.2003
37,361976,2011-01-07 15:11:37,0.000161366,3.55308,28.261,28.9983,114.131,103.961,0.101929,0,0,6933.67,2463.74,4.2003
38,371727,2011-01-07 17:54:09,0.000341975,3.54903,29.0146,29.7539,117.181,106.664,0.100493,0,0,6916.99,2474.19,4.20014
39,381470,2011-01-07 20:36:34,0.000703194,3.55405,29.77,30.5043,120.239,109.346,0.101303,0,0,6926.11,2456.85,4.20014
40,391183,2011-01-07 23:18:28,0.000522585,3.55373,30.5205,31.2574,123.277,112.039,0.10112,0,0,6887.43,2465.76,4.2003
41,400891,2011-01-08 02:00:17,0.000341975,3.55324,31.2737,32.0079,126.325,114.722,0.100584,0,0,6890.67,2457.21,4.2003
42,410591,2011-01-08 04:41:58,0.000522585,3.55049,32.0244,32.7624,129.364,117.421,0.100402,0,0,6869.39,2470.5,4.20014
43,420312,2011-01-08 07:24:00,0.000703194,3.54855,32.7792,33.5182,132.419,120.126,0.102646,0,0,6885.89,2474.6,4.20014
44,430019,2011-01-08 10:05:49,0.000341975,3.54855,33.535,34.2712,135.476,122.821,0.100311,0,0,6881.87,2465.55,4.20014
45,439719,2011-01-08 12:47:30,0.000883803,3.54644,34.2882,35.028,138.524,125.53,0.100493,0,0,6861.72,2477.93,4.2003
46,449413,2011-01-08 15:29:05,0.000161366,3.54661,35.0451,35.7819,141.585,128.229,0.101929,0,0,6865.62,2468.41,4.20014
47,459090,2011-01-08 18:10:23,0.000703194,3.54774,35.799,36.5353,144.635,130.927,0.100584,0,0,6849.65,2466.73,4.20014
48,468761,2011-01-08 20:51:35,0.000703194,3.5492,36.5523,37.2875,147.682,133.619,0.101303,0,0,6847.72,2463.16,4.20014
49,478420,2011-01-08 23:32:36,0.000883803,3.55098,37.3044,38.0385,150.725,136.306,0.101303,0,0,6840.33,2458.85,4.20014
50,488062,2011-01-09 02:13:19,0.000883803,3.55373,38.055,38.7875,153.763,138.985,0.101212,0,0,6829.2,2452.55,4.20014

File: CS2_35_1_18_11_Statistics_1-008.csv
Cycle_Index,Test_Time(s),Date_Time,Current(A),Voltage(V),Charge_Capacity(Ah),Discharge_Capacity(Ah),Charge_Energy(Wh),Discharge_Energy(Wh),Internal_Resistance(Ohm),AC_Impedance(Ohm),ACI_Phase_Angle(Deg),Charge_Time(s),DisCharge_Time(s),Vmax_On_Cycle(V)
1,9725.21,2011-01-10 14:29:25,0.000341975,3.49027,0.749173,0.782815,3.03795,2.81927,0.0995924,0,0,6802.03,2563.12,4.20014
2,19576.3,2011-01-10 17:13:38,0.000703194,3.50662,1.53454,1.5563,6.20729,5.59967,0.0995924,0,0,6958.69,2532.32,4.20014
3,26113.1,2011-01-10 19:02:36,0.000341975,3.5165,2.15715,2.19542,8.69732,7.86847,0.101929,0,0,4084.03,2092.73,4.20014
4,36070.1,2011-01-10 21:48:34,0.00106441,3.53171,2.94415,2.95489,11.8769,10.5896,0.100493,0,0,7110.36,2486.49,4.20014
5,45765.7,2011-01-11 00:30:11,0.000703194,3.53786,3.70477,3.71096,14.953,13.2966,0.100584,0,0,6860.06,2475.56,4.2003
6,55425.2,2011-01-11 03:11:11,0.00106441,3.5424,4.46086,4.46394,18.0118,15.991,0.102021,0,0,6833.84,2465.52,4.20014
7,65061.1,2011-01-11 05:51:49,0.000522585,3.54483,5.21376,5.21495,21.0585,18.6777,0.102021,0,0,6816.98,2458.84,4.20014
8,74676.4,2011-01-11 08:32:05,0.000703194,3.54677,5.96468,5.96451,24.0973,21.3591,0.101212,0,0,6800.94,2454.29,4.20014
9,80987.8,2011-01-11 10:17:18,0.000703194,3.53884,6.5615,6.58631,26.4887,23.5631,0.102831,0,0,3915.27,2036.03,4.20014
10,90843.3,2011-01-11 13:01:34,0.000522585,3.54661,7.33449,7.33496,29.614,26.244,0.101837,0,0,7044.22,2451.24,4.20014
11,100438,2011-01-11 15:41:30,0.000703194,3.54774,8.08484,8.08214,32.6499,28.9199,0.100493,0,0,6788.07,2446.42,4.20014
12,109975,2011-01-11 18:20:28,0.000522585,3.55502,8.8322,8.82399,35.6733,31.575,0.102114,0,0,6747.62,2428.99,4.20014
13,119472,2011-01-11 20:58:47,0.000522585,3.56085,9.57352,9.56187,38.6744,34.2128,0.102114,0,0,6721.5,2416.04,4.20014
14,128955,2011-01-11 23:36:51,0.000883803,3.56344,10.3113,10.2969,41.662,36.8392,0.101395,0,0,6715.77,2406.88,4.2003
15,138411,2011-01-12 02:14:28,0.000883803,3.56441,11.0463,11.0299,44.6394,39.458,0.101395,0,0,6695.8,2400.04,4.2003
16,147853,2011-01-12 04:51:51,0.00106441,3.56522,11.7795,11.7614,47.6092,42.0711,0.103735,0,0,6686.68,2395.2,4.20014
17,153944,2011-01-12 06:33:24,0.000703194,3.57089,12.3555,12.3578,49.9193,44.1777,0.102206,0,0,3778.25,1953.08,4.20014
18,163606,2011-01-12 09:14:27,0.000703194,3.56636,13.1054,13.0855,52.9572,46.7763,0.103017,0,0,6919.22,2382.7,4.2003
19,173044,2011-01-12 11:51:45,0.000703194,3.55648,13.8352,13.819,55.9139,49.4004,0.100584,0,0,6675.36,2401.93,4.20014
20,182316,2011-01-12 14:26:19,0.000703194,3.54952,14.5716,14.5584,58.8927,52.0517,0.10112,0,0,6491.1,2421.14,4.20014
21,191766,2011-01-12 17:03:51,0.000522585,3.56538,15.3073,15.2847,61.8714,54.6443,0.102738,0,0,6712.5,2378.02,4.20014
22,201146,2011-01-12 19:40:12,0.000703194,3.56959,16.0327,16.0064,64.8112,57.2177,0.101303,0,0,6656.81,2363.1,4.20014
23,210517,2011-01-12 22:16:23,0.000161366,3.57251,16.7537,16.7243,67.735,59.7758,0.101303,0,0,6659.15,2350.9,4.20014
24,219875,2011-01-13 00:52:23,0.000883803,3.57429,17.4714,17.4395,70.6465,62.323,0.102924,0,0,6656.09,2342.04,4.20014
25,229215,2011-01-13 03:28:04,0.000703194,3.57607,18.1864,18.1523,73.5474,64.86,0.103641,0,0,6646.37,2333.82,4.20014
26,238535,2011-01-13 06:03:26,0.000703194,3.57785,18.8988,18.8626,76.4386,67.3876,0.103454,0,0,6633.92,2326.16,4.2003
27,244339,2011-01-13 07:40:11,0.000522585,3.58918,19.4454,19.4296,78.6346,69.3808,0.105165,0,0,3587.03,1856.44,4.20014
28,253899,2011-01-13 10:19:32,0.000703194,3.57753,20.1734,20.1364,81.59,71.8947,0.102114,0,0,6885.93,2314.62,4.2003
29,263204,2011-01-13 12:54:38,0.000522585,3.57591,20.8828,20.8444,84.4691,74.4155,0.102924,0,0,6626.19,2318.43,4.20014
30,272495,2011-01-13 15:29:30,0.000883803,3.57251,21.5911,21.5536,87.3439,76.941,0.101929,0,0,6608.64,2321.95,4.2003
31,281767,2011-01-13 18:04:04,0.000703194,3.57542,22.3004,22.2602,90.222,79.4574,0.102114,0,0,6598.36,2313.81,4.20014
32,291027,2011-01-13 20:38:25,0.000703194,3.58012,23.0063,22.9623,93.0876,81.9535,0.103641,0,0,6601.3,2298.85,4.20014
33,300259,2011-01-13 23:12:18,0.000703194,3.58222,23.708,23.6616,95.9373,84.4384,0.103017,0,0,6581.78,2289.93,4.20014
34,309448,2011-01-14 01:45:28,0.000883803,3.5908,24.4064,24.3536,98.7741,86.8924,0.104451,0,0,6562.72,2266.18,4.2003
35,318625,2011-01-14 04:18:27,0.000883803,3.59242,25.0976,25.0421,101.585,89.3323,0.103735,0,0,6562.31,2254.82,4.2003
36,327787,2011-01-14 06:51:10,0.000341975,3.59388,25.7858,25.7282,104.384,91.7616,0.104356,0,0,6555.89,2246.49,4.2003
37,336935,2011-01-14 09:23:39,0.000703194,3.59226,26.4717,26.4136,107.173,94.1893,0.104356,0,0,6542.79,2244.64,4.2003
38,346074,2011-01-14 11:55:59,0.000703194,3.58902,27.1578,27.1004,109.964,96.6237,0.103641,0,0,6529.86,2249.01,4.2003
39,351617,2011-01-14 13:28:24,0.000703194,3.601,27.6773,27.6421,112.054,98.5219,0.105355,0,0,3409.88,1773.67,4.20014
40,361026,2011-01-14 16:05:14,0.00106441,3.58708,28.384,28.3268,114.927,100.95,0.104451,0,0,6806.38,2242.34,4.2003
41,370163,2011-01-14 18:37:32,0.000703194,3.58983,29.0702,29.0095,117.718,103.369,0.104356,0,0,6541.36,2235.59,4.2003
42,379275,2011-01-14 21:09:26,0.000703194,3.59323,29.7527,29.6888,120.494,105.774,0.104451,0,0,6527.3,2224.51,4.2003
43,388361,2011-01-14 23:40:53,0.000883803,3.59388,30.4318,30.3666,123.257,108.173,0.104451,0,0,6506.61,2219.54,4.2003
44,397439,2011-01-15 02:12:12,0.000703194,3.59533,31.1097,31.0424,126.016,110.564,0.103641,0,0,6504.76,2213.07,4.2003
45,406509,2011-01-15 04:43:23,0.000703194,3.59566,31.7855,31.717,128.766,112.95,0.10607,0,0,6500.22,2209.03,4.20014
46,415564,2011-01-15 07:14:19,0.000703194,3.59582,32.4599,32.3903,131.512,115.331,0.103828,0,0,6490.33,2205.03,4.2003
47,424615,2011-01-15 09:45:11,0.000883803,3.59647,33.1333,33.0622,134.253,117.706,0.105355,0,0,6490.55,2200.2,4.2003
48,433661,2011-01-15 12:15:59,0.000703194,3.59307,33.8054,33.7354,136.989,120.089,0.104451,0,0,6481.17,2204.73,4.2003
49,442699,2011-01-15 14:46:38,0.000703194,3.59242,34.4793,34.4087,139.732,122.472,0.103735,0,0,6473.47,2204.98,4.2003
50,451736,2011-01-15 17:17:16,0.000161366,3.59015,35.1529,35.0829,142.473,124.859,0.105165,0,0,6468.62,2207.54,4.2003

File: CS2_35_1_24_11_Statistics_1-008.csv
Cycle_Index,Test_Time(s),Date_Time,Current(A),Voltage(V),Charge_Capacity(Ah),Discharge_Capacity(Ah),Charge_Energy(Wh),Discharge_Energy(Wh),Internal_Resistance(Ohm),AC_Impedance(Ohm),ACI_Phase_Angle(Deg),Charge_Time(s),DisCharge_Time(s),Vmax_On_Cycle(V)
1,9172.57,2011-01-18 15:50:16,0.000522585,3.54418,0.674669,0.706292,2.75044,2.51916,0.102021,0,0,6499.66,2312.85,4.2003
2,18443.6,2011-01-18 18:24:48,0.000703194,3.55891,1.38406,1.39923,5.62949,4.98216,0.102924,0,0,6641.86,2269.13,4.2003
3,27600,2011-01-18 20:57:26,0.000703194,3.56992,2.07666,2.08295,8.4443,7.40546,0.105974,0,0,6557.33,2238.99,4.2003
4,36702.1,2011-01-18 23:29:09,0.000883803,3.57623,2.76034,2.76088,11.2252,9.80506,0.10526,0,0,6521.99,2220.05,4.2003
5,45754.8,2011-01-19 02:00:03,0.000883803,3.58093,3.43802,3.43409,13.9831,12.1861,0.106166,0,0,6487.98,2204.59,4.2003
6,54779.9,2011-01-19 04:30:30,0.000703194,3.584,4.11101,4.10455,16.723,14.5564,0.10607,0,0,6469.48,2195.57,4.2003
7,63778.7,2011-01-19 07:00:30,0.000703194,3.58756,4.78121,4.77134,19.452,16.9124,0.106166,0,0,6455.17,2183.57,4.2003
8,72754.2,2011-01-19 09:30:06,0.000703194,3.58886,5.44782,5.43726,22.167,19.2659,0.105974,0,0,6434.64,2180.7,4.2003
9,81709.2,2011-01-19 11:59:23,0.000883803,3.58692,6.11419,6.10394,24.8808,21.6242,0.104451,0,0,6411.77,2183.15,4.20014
10,90591.7,2011-01-19 14:27:26,0.000703194,3.58643,6.78204,6.77183,27.5987,23.9894,0.106166,0,0,6335.35,2187.11,4.2003
11,99513.9,2011-01-19 16:56:10,0.000883803,3.59469,7.44866,7.43217,30.3129,26.3231,0.105355,0,0,6399.69,2162.4,4.2003
12,108370,2011-01-19 19:23:47,0.000522585,3.601,8.10814,8.08641,32.9996,28.631,0.10526,0,0,6353.89,2142.45,4.2003
13,117206,2011-01-19 21:51:04,0.000883803,3.60618,8.76185,8.73515,35.6644,30.9172,0.107592,0,0,6350.72,2124.51,4.20014
14,126022,2011-01-20 00:18:02,0.000341975,3.61152,9.40962,9.37821,38.307,33.1792,0.107592,0,0,6350.92,2105.87,4.2003
15,134804,2011-01-20 02:44:25,0.000883803,3.61508,10.0521,10.017,40.9292,35.4237,0.106976,0,0,6329.35,2091.9,4.2003
16,143558,2011-01-20 05:10:20,0.000341975,3.61654,10.6905,10.6532,43.5356,37.6584,0.109821,0,0,6310.41,2083.62,4.2003
17,152291,2011-01-20 07:35:55,0.000883803,3.61832,11.3265,11.287,46.1325,39.8834,0.108597,0,0,6297.91,2075.48,4.2003
18,161024,2011-01-20 10:01:28,0.000703194,3.61541,11.9603,11.9214,48.7211,42.112,0.106976,0,0,6294.5,2077.71,4.20014
19,169737,2011-01-20 12:26:43,0.000522585,3.61185,12.5955,12.5577,51.3138,44.351,0.107689,0,0,6270.13,2083.43,4.20014
20,178447,2011-01-20 14:51:54,0.000883803,3.61185,13.2321,13.1933,53.9121,46.5883,0.106166,0,0,6268.69,2081.34,4.2003
21,187155,2011-01-20 17:17:03,0.000703194,3.60861,13.8681,13.8308,56.5077,48.8353,0.108499,0,0,6259.7,2087.81,4.20014
22,195830,2011-01-20 19:41:40,0.000883803,3.61816,14.5047,14.4593,59.1044,51.0433,0.10992,0,0,6257.02,2058.14,4.2003
23,204474,2011-01-20 22:05:44,0.000883803,3.62221,15.1326,15.0822,61.6688,53.2293,0.106166,0,0,6243.5,2040.17,4.2003
24,213092,2011-01-21 00:29:24,0.000703194,3.62399,15.7557,15.7032,64.2145,55.4077,0.108499,0,0,6224.16,2033.87,4.2003
25,221689,2011-01-21 02:52:42,0.000703194,3.62496,16.3766,16.3217,66.752,57.5769,0.107787,0,0,6211.41,2025.79,4.2003
26,230273,2011-01-21 05:15:48,0.000883803,3.62544,16.9954,16.9384,69.2807,59.7394,0.108597,0,0,6204.46,2019.43,4.2003
27,238847,2011-01-21 07:38:42,0.000883803,3.62577,17.6121,17.5534,71.8016,61.8955,0.107592,0,0,6199.13,2014.4,4.2003
28,247427,2011-01-21 10:01:44,0.000883803,3.62221,18.2277,18.1705,74.3179,64.0614,0.106976,0,0,6199.46,2020.97,4.2003
29,255987,2011-01-21 12:24:25,0.000883803,3.61994,18.8458,18.7894,76.8431,66.2364,0.108401,0,0,6172.49,2026.7,4.2003
30,264536,2011-01-21 14:46:55,0.000883803,3.62172,19.4648,19.4057,79.3718,68.4017,0.108401,0,0,6170.38,2018.75,4.2003
31,273057,2011-01-21 17:08:58,0.00106441,3.62431,20.0813,20.0187,81.8904,70.5531,0.107787,0,0,6153.6,2007.62,4.2003
32,281557,2011-01-21 19:30:38,0.00106441,3.63079,20.6938,20.6241,84.3937,72.6735,0.10992,0,0,6156.88,1982.59,4.2003
33,290021,2011-01-21 21:51:44,0.000703194,3.63192,21.2991,21.2272,86.8696,74.7843,0.108597,0,0,6129.21,1975.14,4.2003
34,298466,2011-01-22 00:12:30,0.00106441,3.635,21.9021,21.8257,89.3365,76.8774,0.110019,0,0,6124.18,1960.42,4.2003
35,306880,2011-01-22 02:32:45,0.000522585,3.63564,22.5007,22.4222,91.7863,78.9623,0.109309,0,0,6100.35,1953.31,4.2003
36,315280,2011-01-22 04:52:46,0.00106441,3.63678,23.0972,23.0163,94.2278,81.0383,0.111637,0,0,6094.18,1945.92,4.2003
37,323664,2011-01-22 07:12:31,0.000703194,3.6371,23.6916,23.6085,96.6608,83.107,0.109507,0,0,6084.17,1939.59,4.2003
38,332029,2011-01-22 09:31:58,0.000883803,3.63823,24.2839,24.1983,99.0856,85.1664,0.108695,0,0,6073.61,1931.84,4.2003
39,340378,2011-01-22 11:51:08,0.000341975,3.63904,24.8738,24.786,101.501,87.218,0.109309,0,0,6063.8,1924.64,4.2003
40,348709,2011-01-22 14:10:00,0.000703194,3.64018,25.4617,25.3715,103.909,89.2606,0.110019,0,0,6053.71,1917.55,4.2003
41,353083,2011-01-22 15:22:56,0.000883803,3.65976,25.862,25.7943,105.529,90.7173,0.111637,0,0,2629,1385.01,4.20014
42,361745,2011-01-22 17:47:19,0.000883803,3.61848,26.4705,26.3987,108.021,92.8411,0.108499,0,0,6323,1979.14,4.20014
43,370177,2011-01-22 20:07:52,0.000883803,3.61379,27.0773,27.0092,110.5,94.9908,0.10464,0,0,6072.63,1999.26,4.2003
44,378612,2011-01-22 22:28:28,0.00106441,3.61217,27.6887,27.6216,112.995,97.1489,0.108597,0,0,6069.15,2005.44,4.20014
45,387048,2011-01-23 00:49:05,0.000883803,3.6112,28.3017,28.2351,115.497,99.3114,0.10688,0,0,6066.31,2009.2,4.20014
46,395482,2011-01-23 03:09:40,0.000522585,3.61136,28.9156,28.8483,118.001,101.473,0.10688,0,0,6065.96,2008.22,4.20014
47,403912,2011-01-23 05:30:12,0.000522585,3.6112,29.5291,29.4615,120.505,103.634,0.106976,0,0,6062.14,2007.91,4.20014
48,412335,2011-01-23 07:50:36,0.00106441,3.61217,30.1425,30.0742,123.008,105.794,0.10688,0,0,6056.87,2006.3,4.2003
49,420753,2011-01-23 10:10:55,0.000703194,3.61233,30.7555,30.6863,125.509,107.952,0.107689,0,0,6052.84,2004.51,4.20014
50,429147,2011-01-23 12:30:50,0.000883803,3.61346,31.3677,31.2975,128.007,110.106,0.10688,0,0,6033.01,2001.41,4.20014