Folder: Make_My_route/battery-analytics-lab/data/raw/calce (part 3)

File: CS2_35_11_23_10_Statistics_1-008.csv
Cycle_Index,Test_Time(s),Date_Time,Current(A),Voltage(V),Charge_Capacity(Ah),Discharge_Capacity(Ah),Charge_Energy(Wh),Discharge_Energy(Wh),Internal_Resistance(Ohm),AC_Impedance(Ohm),ACI_Phase_Angle(Deg),Charge_Time(s),DisCharge_Time(s),Vmax_On_Cycle(V)
1,11421,2010-11-16 14:55:19,0.000161366,3.32757,0.961549,0.99572,3.85485,3.6395,0.0923051,0,0,7800.89,3260.04,4.20014
2,22995.5,2010-11-16 18:08:14,0.000341975,3.33842,1.95908,1.98928,7.83283,7.26945,0.0929469,0,0,7961.68,3252.75,4.20014
3,34553,2010-11-16 21:20:53,0.000522585,3.32498,2.95203,2.98417,11.7945,10.9034,0.0930308,0,0,7940.15,3257.28,4.20014
4,46094.8,2010-11-17 00:33:16,0.000703194,3.30313,3.94844,3.98543,15.766,14.571,0.0914128,0,0,7903.87,3277.83,4.20014
5,57666.9,2010-11-17 03:46:09,0.000883803,3.29779,4.94968,4.98807,19.7543,18.2447,0.0907677,0,0,7929.59,3282.4,4.20014
6,69256.4,2010-11-17 06:59:20,0.000703194,3.33243,5.95054,5.98293,23.7406,21.8781,0.0932833,0,0,7972.28,3257.17,4.20014
7,80834.2,2010-11-17 10:12:19,0.000883803,3.33178,6.94432,6.97637,27.7057,25.5042,0.0931148,0,0,7965.14,3252.57,4.20014
8,92392.8,2010-11-17 13:24:59,0.000522585,3.32677,7.93772,7.97036,31.6689,29.1339,0.0923886,0,0,7944.29,3254.29,4.20014
9,103957,2010-11-17 16:37:44,0.000522585,3.32563,8.93126,8.96381,35.6326,32.7613,0.0939245,0,0,7951.68,3252.56,4.20014
10,115526,2010-11-17 19:50:34,0.000522585,3.33114,9.92383,9.95512,39.593,36.3778,0.0940094,0,0,7962.74,3245.64,4.20014
11,127075,2010-11-17 23:03:04,0.000522585,3.29633,10.9157,10.9527,43.5518,40.0277,0.0930308,0,0,7922.86,3265.99,4.20014
12,138635,2010-11-18 02:15:46,0.000883803,3.29196,11.9134,11.9514,47.5278,43.6834,0.0929469,0,0,7931.21,3269.49,4.20014
13,150180,2010-11-18 05:28:12,0.000341975,3.30977,12.9119,12.947,51.5057,47.3257,0.0954577,0,0,7925.01,3259.24,4.20014
14,161749,2010-11-18 08:41:02,0.000703194,3.33535,13.9049,13.9351,55.4677,50.9274,0.0948198,0,0,7974.45,3235.17,4.20014
15,173296,2010-11-18 11:53:30,0.000703194,3.32482,14.8926,14.9241,59.412,54.5348,0.0946487,0,0,7948.41,3237.87,4.20014
16,184829,2010-11-18 15:05:45,0.000341975,3.32272,15.8814,15.9129,63.3579,58.1428,0.0947342,0,0,7935.98,3237.37,4.20014
17,196390,2010-11-18 18:18:26,0.000703194,3.3525,16.8679,16.8938,67.2968,61.7103,0.0940094,0,0,7988.46,3211.96,4.20014
18,207972,2010-11-18 21:31:30,0.000341975,3.33535,17.8474,17.8755,71.2151,65.2804,0.0940945,0,0,8008,3214.32,4.20014
19,219471,2010-11-19 00:43:10,0.000703194,3.30637,18.8316,18.8648,75.1447,68.8943,0.0946487,0,0,7900.43,3238.74,4.20014
20,230991,2010-11-19 03:55:11,0.000703194,3.30216,19.8211,19.8551,79.0914,72.5143,0.0931148,0,0,7917.04,3242.17,4.20014
21,242533,2010-11-19 07:07:34,0.000161366,3.34716,20.8084,20.8343,83.0291,76.0767,0.0940094,0,0,7976.26,3206.1,4.20014
22,254089,2010-11-19 10:20:12,0.000522585,3.36562,21.7855,21.8076,86.9381,79.6089,0.093199,0,0,8009.61,3186.62,4.20014
23,265620,2010-11-19 13:32:24,0.000522585,3.36659,22.7585,22.7797,90.8328,83.1371,0.0946487,0,0,7987.45,3182.83,4.20014
24,277156,2010-11-19 16:44:41,0.000883803,3.3695,23.7297,23.7497,94.7214,86.6559,0.0932833,0,0,7999.87,3176.51,4.20014
25,288689,2010-11-19 19:56:55,0.000341975,3.37193,24.6991,24.7179,98.603,90.1659,0.0948198,0,0,8002.11,3170.29,4.20014
26,300170,2010-11-19 23:08:18,0.000883803,3.32288,25.6694,25.6968,102.489,93.7345,0.0938397,0,0,7916.64,3205,4.2003
27,311647,2010-11-20 02:19:36,0.000522585,3.31527,26.6492,26.6782,106.402,97.3166,0.0907677,0,0,7903.61,3213.05,4.20014
28,323118,2010-11-20 05:30:48,0.000522585,3.31203,27.6309,27.6605,110.32,100.904,0.0923886,0,0,7894.86,3216.03,4.20014
29,331911,2010-11-20 07:57:22,0.000703194,3.29811,28.4872,28.5217,113.711,104.022,0.0956303,0,0,5613.62,2819.46,4.20014
30,343420,2010-11-20 11:09:12,0.000883803,3.30961,29.4739,29.5041,117.647,107.611,0.0923886,0,0,7932.53,3216.5,4.20014
31,354882,2010-11-20 14:20:15,0.000703194,3.30637,30.457,30.4873,121.569,111.205,0.0925559,0,0,7882.68,3218.95,4.20014
32,366331,2010-11-20 17:31:05,0.000703194,3.30491,31.4406,31.471,125.492,114.802,0.0945634,0,0,7867.85,3220.38,4.20014
33,377773,2010-11-20 20:41:48,0.000161366,3.3041,32.4246,32.4547,129.416,118.399,0.0923051,0,0,7861.42,3220.63,4.20014
34,389210,2010-11-20 23:52:27,0.000341975,3.30604,33.4085,33.4379,133.339,121.995,0.093199,0,0,7858.43,3218.88,4.20014
35,400650,2010-11-21 03:03:07,0.000341975,3.30928,34.3913,34.4197,137.258,125.584,0.0945634,0,0,7865.2,3214.18,4.20014
36,412083,2010-11-21 06:13:42,0.000703194,3.31009,35.373,35.4008,141.174,129.17,0.0938397,0,0,7860.9,3212.24,4.20014
37,423510,2010-11-21 09:24:10,0.00106441,3.31122,36.3542,36.3814,145.088,132.753,0.0931148,0,0,7857.18,3210.33,4.20014
38,434931,2010-11-21 12:34:33,0.000703194,3.31171,37.3347,37.3614,148.999,136.335,0.0931148,0,0,7852.85,3208.14,4.20014
39,446344,2010-11-21 15:44:47,0.00106441,3.31122,38.3148,38.3412,152.909,139.916,0.0924722,0,0,7845.4,3207.66,4.20014
40,457754,2010-11-21 18:54:58,0.000161366,3.31074,39.2947,39.3207,156.817,143.497,0.0931148,0,0,7842.84,3206.97,4.20014
41,469158,2010-11-21 22:05:03,0.000703194,3.3109,40.2743,40.2999,160.725,147.077,0.0924722,0,0,7837.47,3205.8,4.20014
42,480557,2010-11-22 01:15:03,0.000703194,3.31139,41.2537,41.2788,164.631,150.655,0.091661,0,0,7835.4,3204.21,4.20014
43,491955,2010-11-22 04:25:02,0.000161366,3.31171,42.2327,42.2572,168.535,154.232,0.0931148,0,0,7833.56,3203.43,4.20014
44,503411,2010-11-22 07:36:00,0.000703194,3.38035,43.2073,43.218,172.426,157.72,0.0962666,0,0,7950.53,3146.09,4.20014
45,514837,2010-11-22 10:46:26,0.00124502,3.37646,44.1668,44.1768,176.269,161.198,0.0955439,0,0,7925.72,3139.62,4.2003
46,526259,2010-11-22 13:56:49,0.000703194,3.40496,45.1257,45.1291,180.109,164.645,0.0971633,0,0,7943.4,3118.35,4.2003
47,537625,2010-11-22 17:06:17,0.000522585,3.40237,46.0775,46.0804,183.924,168.089,0.0958035,0,0,7891.45,3115.1,4.2003
48,548994,2010-11-22 20:15:46,0.000522585,3.40706,47.0278,47.0292,187.734,171.521,0.0964407,0,0,7901.5,3106.62,4.2003
49,560318,2010-11-22 23:24:33,0.000883803,3.3436,47.9791,47.9925,191.546,175.03,0.0932833,0,0,7810.87,3154.03,4.20014
50,571674,2010-11-23 02:33:49,0.000703194,3.33437,48.9428,48.9586,195.398,178.552,0.0930308,0,0,7832.58,3162.95,4.20014

File: CS2_35_11_24_10_Statistics_1-008.csv
Cycle_Index,Test_Time(s),Date_Time,Current(A),Voltage(V),Charge_Capacity(Ah),Discharge_Capacity(Ah),Charge_Energy(Wh),Discharge_Energy(Wh),Internal_Resistance(Ohm),AC_Impedance(Ohm),ACI_Phase_Angle(Deg),Charge_Time(s),DisCharge_Time(s),Vmax_On_Cycle(V)
1,11595.8,2010-11-23 15:38:12,0.000703194,3.39103,0.961728,0.959269,3.8639,3.47647,0.0947342,0,0,8094.68,3141.02,4.2003
2,23061.4,2010-11-23 18:49:19,0.000703194,3.39961,1.92199,1.91532,7.71208,6.9394,0.0956303,0,0,7975.28,3130.29,4.20014
3,34560.8,2010-11-23 22:01:00,0.000522585,3.3661,2.87706,2.87618,11.5421,10.4289,0.0947342,0,0,7993.17,3146.1,4.2003
4,45955.8,2010-11-24 01:10:56,0.000883803,3.34943,3.84027,3.84249,15.3954,13.9481,0.0938397,0,0,7871.16,3163.74,4.20014
5,57352.3,2010-11-24 04:20:54,0.000522585,3.34587,4.8068,4.80946,19.259,17.4717,0.0925559,0,0,7870.67,3165.83,4.2003
6,68794.3,2010-11-24 07:31:37,0.000341975,3.39638,5.77024,5.76211,23.1115,20.9242,0.0956303,0,0,7962.71,3119.2,4.20014
7,80209.2,2010-11-24 10:41:53,0.000522585,3.40836,6.72133,6.70964,26.9258,24.3516,0.0963536,0,0,7952.06,3102.7,4.2003
8,91595.9,2010-11-24 13:51:41,0.000341975,3.40933,7.66816,7.65538,30.7239,27.7726,0.0964407,0,0,7930.01,3096.63,4.20014

File: CS2_35_12_06_10_Statistics_1-008.csv
Cycle_Index,Test_Time(s),Date_Time,Current(A),Voltage(V),Charge_Capacity(Ah),Discharge_Capacity(Ah),Charge_Energy(Wh),Discharge_Energy(Wh),Internal_Resistance(Ohm),AC_Impedance(Ohm),ACI_Phase_Angle(Deg),Charge_Time(s),DisCharge_Time(s),Vmax_On_Cycle(V)
1,6936.1,2010-11-29 12:29:15,0.000522585,3.35461,0.288819,0.945439,1.20301,3.43221,0.0940094,0,0,3480.44,3095.59,4.20014
2,18179.4,2010-11-29 15:36:39,0.000522585,3.3865,1.23316,1.88477,4.98524,6.83486,0.0964407,0,0,7807.72,3075.53,4.20014
3,29413.3,2010-11-29 18:43:55,0.000703194,3.37614,2.17163,2.82678,8.74871,10.2477,0.0956303,0,0,7789.23,3084.6,4.20014
4,40728.2,2010-11-29 21:52:31,0.000883803,3.35315,3.11269,3.77464,12.5236,13.6887,0.0947342,0,0,7851.3,3103.48,4.20014
5,51998.9,2010-11-30 01:00:23,0.000341975,3.33858,4.0631,4.73035,16.3274,17.1691,0.093199,0,0,7781.59,3129.02,4.20014
6,63289.4,2010-11-30 04:08:35,0.000341975,3.33583,5.01874,5.68839,20.1491,20.6599,0.0939245,0,0,7793.85,3136.65,4.20014
7,74651.6,2010-11-30 07:17:58,0.000883803,3.37792,5.9734,6.63544,23.9673,24.0928,0.0947342,0,0,7901.19,3100.91,4.2003
8,86027.5,2010-11-30 10:27:35,0.000703194,3.3844,6.91894,7.57972,27.76,27.5112,0.0947342,0,0,7923.89,3091.98,4.2003
9,97372.6,2010-11-30 13:36:42,0.000883803,3.38618,7.86314,8.52367,31.5471,30.9288,0.0971633,0,0,7894.1,3090.91,4.2003
10,108731,2010-11-30 16:46:02,0.000703194,3.39249,8.80612,9.46533,35.3303,34.3351,0.0978845,0,0,7915.15,3083.5,4.2003
11,120068,2010-11-30 19:55:00,0.000703194,3.3946,9.74691,10.4056,39.1054,37.7346,0.0964407,0,0,7897.96,3078.86,4.2003
12,131413,2010-11-30 23:04:06,0.000703194,3.35866,10.6887,11.3552,42.8856,41.1837,0.0939245,0,0,7876.18,3108.69,4.20014
13,142733,2010-12-01 02:12:47,0.000703194,3.35008,11.6392,12.3081,46.6906,44.6501,0.093199,0,0,7839.82,3119.66,4.20014
14,154037,2010-12-01 05:21:13,0.000522585,3.36319,12.5921,13.2588,50.5033,48.1092,0.093199,0,0,7831.79,3112.54,4.20014
15,165384,2010-12-01 08:30:21,0.000883803,3.39476,13.5389,14.1988,54.2981,51.5097,0.0957168,0,0,7909.17,3077.56,4.2003
16,176751,2010-12-01 11:39:49,0.000522585,3.39281,14.4785,15.1383,58.069,54.91,0.0955439,0,0,7930.89,3076.38,4.2003
17,188094,2010-12-01 14:48:54,0.000703194,3.39994,15.4171,16.0751,61.8349,58.2971,0.0964407,0,0,7915.34,3067.63,4.2003
18,199440,2010-12-01 17:58:01,0.000522585,3.40059,16.353,17.0106,65.5918,61.6788,0.0977963,0,0,7922.16,3063.22,4.20014
19,210805,2010-12-01 21:07:27,0.000883803,3.39735,17.2877,17.9457,69.3448,65.0583,0.0971633,0,0,7942.65,3061.98,4.20014
20,222097,2010-12-02 00:15:40,0.000703194,3.36481,18.2254,18.8902,73.1047,68.4888,0.0940094,0,0,7839.86,3092.58,4.20014
21,233407,2010-12-02 03:24:11,0.000341975,3.36011,19.1703,19.8365,76.8888,71.9289,0.0946487,0,0,7851.39,3098.22,4.20014
22,244645,2010-12-02 06:31:31,0.000883803,3.39654,20.1142,20.7726,80.6668,75.3168,0.0955439,0,0,7812.66,3065.35,4.20014
23,255970,2010-12-02 09:40:17,0.000341975,3.39994,21.0492,21.7065,84.4197,78.6953,0.0963536,0,0,7907.36,3057.89,4.20014
24,267262,2010-12-02 12:48:31,0.000883803,3.39443,21.9837,22.6418,88.1691,82.0829,0.0963536,0,0,7869.28,3062.5,4.20014
25,278551,2010-12-02 15:56:41,0.000341975,3.39573,22.9186,23.5762,91.9188,85.4663,0.0956303,0,0,7869.36,3059.61,4.20014
26,289848,2010-12-02 19:04:59,0.000703194,3.39719,23.8529,24.5099,95.666,88.8474,0.0949057,0,0,7879.06,3057.43,4.20014
27,301185,2010-12-02 22:13:58,0.000703194,3.36983,24.7859,25.4489,99.4091,92.256,0.0925559,0,0,7903.31,3074.13,4.20014
28,312460,2010-12-03 01:21:54,0.000161366,3.36222,25.7265,26.3915,103.176,95.6828,0.0939245,0,0,7828.75,3085.96,4.20014
29,323729,2010-12-03 04:29:44,0.000522585,3.35947,26.669,27.3349,106.949,99.1142,0.0940094,0,0,7819.97,3088.62,4.20014
30,335026,2010-12-03 07:38:02,0.000883803,3.40042,27.6098,28.267,110.717,102.49,0.0969881,0,0,7885.24,3052.05,4.20014
31,346290,2010-12-03 10:45:48,0.000703194,3.39751,28.5413,29.1986,114.454,105.865,0.0949057,0,0,7853.33,3050.52,4.20014
32,357539,2010-12-03 13:53:18,0.00106441,3.39589,29.4728,30.1302,118.189,109.24,0.0947342,0,0,7839.14,3050.25,4.20014
33,368793,2010-12-03 17:00:53,0.000522585,3.39719,30.4041,31.061,121.924,112.612,0.0926399,0,0,7845.26,3047.81,4.20014
34,380031,2010-12-03 20:08:13,0.000883803,3.40204,31.3338,31.9893,125.652,115.972,0.0949057,0,0,7839.51,3039.28,4.20014
35,391246,2010-12-03 23:15:09,0.000522585,3.36886,32.2634,32.9262,129.382,119.377,0.0940094,0,0,7787.43,3067.24,4.20014
36,402482,2010-12-04 02:22:26,0.000161366,3.36497,33.2006,33.8644,133.134,122.788,0.0938397,0,0,7803.5,3071.9,4.20014
37,413714,2010-12-04 05:29:39,0.000883803,3.36335,34.1386,34.8032,136.89,126.203,0.0932833,0,0,7798.44,3073.51,4.20014
38,424943,2010-12-04 08:36:50,0.000522585,3.36368,35.0772,35.7419,140.647,129.617,0.0939245,0,0,7796.09,3073.34,4.20014
39,436175,2010-12-04 11:44:03,0.000522585,3.36335,36.0157,36.6805,144.404,133.032,0.0930308,0,0,7798.52,3073.01,4.20014
40,447391,2010-12-04 14:51:00,0.000703194,3.36303,36.9538,37.6189,148.159,136.446,0.0923886,0,0,7783.81,3072.35,4.20014
41,458611,2010-12-04 17:58:01,0.000522585,3.36319,37.892,38.5572,151.914,139.86,0.0939245,0,0,7787.63,3071.88,4.20014
42,466883,2010-12-04 20:15:55,0.000883803,3.35089,38.6947,39.3667,155.1,142.779,0.0940094,0,0,5262.45,2650.27,4.20014
43,478152,2010-12-04 23:23:45,0.000703194,3.36222,39.6386,40.3045,158.877,146.192,0.0953716,0,0,7838.63,3069.93,4.20014
44,489355,2010-12-05 02:30:29,0.000341975,3.36238,40.5767,41.2424,162.631,149.606,0.0947342,0,0,7772.12,3070.57,4.20014
45,497626,2010-12-05 04:48:21,0.000703194,3.35202,41.3794,42.0515,165.816,152.524,0.0953716,0,0,5262.08,2648.97,4.20014
46,508890,2010-12-05 07:56:07,0.000522585,3.36206,42.3224,42.9885,169.59,155.935,0.0939245,0,0,7836.61,3067.7,4.20014
47,520083,2010-12-05 11:02:41,0.000703194,3.3627,43.2597,43.9253,173.34,159.346,0.0946487,0,0,7766.34,3066.68,4.20014
48,531269,2010-12-05 14:09:08,0.000522585,3.36351,44.1963,44.8617,177.088,162.755,0.0947342,0,0,7759.83,3065.71,4.20014
49,542448,2010-12-05 17:15:28,0.000522585,3.36643,45.1319,45.7968,180.832,166.157,0.0931148,0,0,7757.53,3061.04,4.20014
50,553628,2010-12-05 20:21:50,0.000703194,3.36691,46.0666,46.7314,184.573,169.558,0.0923886,0,0,7760.82,3059.72,4.20014

File: CS2_35_12_13_10_Statistics_1-008.csv
Cycle_Index,Test_Time(s),Date_Time,Current(A),Voltage(V),Charge_Capacity(Ah),Discharge_Capacity(Ah),Charge_Energy(Wh),Discharge_Energy(Wh),Internal_Resistance(Ohm),AC_Impedance(Ohm),ACI_Phase_Angle(Deg),Charge_Time(s),DisCharge_Time(s),Vmax_On_Cycle(V)
1,11283.7,2010-12-06 15:41:31,0.000522585,3.38877,0.92954,0.932002,3.73804,3.37943,0.0947342,0,0,7871.99,3051.66,4.20014
2,22492.1,2010-12-06 18:48:21,0.000522585,3.39994,1.86306,1.86112,7.48038,6.74648,0.0961798,0,0,7806.08,3042.21,4.20014
3,33713.3,2010-12-06 21:55:23,0.000341975,3.38488,2.79133,2.79239,11.2042,10.1254,0.0946487,0,0,7811.95,3049.16,4.20014
4,44885.3,2010-12-07 01:01:36,0.000341975,3.3763,3.72475,3.72769,14.9435,13.5254,0.0924722,0,0,7749.79,3062.15,4.20014
5,56053.3,2010-12-07 04:07:46,0.000703194,3.37517,4.66,4.66304,18.6883,16.9266,0.0939245,0,0,7745.81,3062.13,4.20014
6,67236.5,2010-12-07 07:14:10,0.000341975,3.40577,5.59256,5.58799,22.4228,20.2771,0.0963536,0,0,7794.57,3028.55,4.2003
7,78405.9,2010-12-07 10:20:21,0.000883803,3.40965,6.51657,6.51037,26.1302,23.6171,0.0978845,0,0,7789.11,3020.19,4.20014
8,89555.3,2010-12-07 13:26:12,0.000883803,3.40738,7.43868,7.43241,29.8301,26.9564,0.0963536,0,0,7770.58,3018.83,4.20014
9,100685,2010-12-07 16:31:43,0.000161366,3.41095,8.35998,8.35245,33.5262,30.2872,0.0956303,0,0,7757.55,3012.38,4.20014
10,111821,2010-12-07 19:37:20,0.000161366,3.41337,9.27928,9.27086,37.2156,33.6109,0.0955439,0,0,7768.25,3007.02,4.20014
11,122965,2010-12-07 22:43:06,0.000341975,3.39006,10.1984,10.1953,40.9047,36.9654,0.0955439,0,0,7758.11,3026.52,4.20014
12,134098,2010-12-08 01:48:40,0.000703194,3.38456,11.1232,11.1216,44.6111,40.3296,0.0931148,0,0,7740.43,3032.54,4.20014
13,145245,2010-12-08 04:54:28,0.000703194,3.38278,12.0497,12.0484,48.3231,43.697,0.0932833,0,0,7751.78,3034.43,4.20014
14,156417,2010-12-08 08:00:41,0.000703194,3.41904,12.9737,12.9636,52.0281,47.0084,0.0970756,0,0,7815.75,2996.74,4.20014
15,167549,2010-12-08 11:06:14,0.000883803,3.42131,13.8885,13.8769,55.7012,50.3129,0.0971633,0,0,7780.84,2990.66,4.20014
16,178655,2010-12-08 14:11:22,0.000883803,3.42034,14.8022,14.79,59.3689,53.6167,0.0963536,0,0,7756.48,2989.94,4.20014
17,189763,2010-12-08 17:16:31,0.000522585,3.42422,15.715,15.7012,63.033,56.9122,0.0955439,0,0,7764.24,2983.57,4.2003
18,200864,2010-12-08 20:21:33,0.000883803,3.41839,16.626,16.613,66.6907,60.2114,0.0955439,0,0,7754.71,2985.63,4.2003
19,211965,2010-12-08 23:26:35,0.000883803,3.39427,17.5393,17.5317,70.357,63.5449,0.093199,0,0,7732.74,3008.05,4.20014
20,223072,2010-12-09 02:31:44,0.000703194,3.39265,18.4583,18.451,74.041,66.8821,0.0947342,0,0,7737.69,3010.15,4.2003
21,234163,2010-12-09 05:36:36,0.000703194,3.40819,19.3777,19.3664,77.7263,70.2026,0.0940094,0,0,7733.11,2997.65,4.20014
22,245267,2010-12-09 08:41:41,0.00106441,3.42487,20.2902,20.2747,81.3886,73.487,0.0949057,0,0,7769.6,2973.86,4.2003
23,256367,2010-12-09 11:46:42,0.00106441,3.43296,21.1981,21.1798,85.0349,76.7562,0.0940945,0,0,7775.84,2963.82,4.2003
24,267426,2010-12-09 14:51:03,0.000522585,3.42034,22.1038,22.0878,88.6716,80.0418,0.0969007,0,0,7726.64,2972.97,4.2003
25,278503,2010-12-09 17:55:41,0.000703194,3.43264,23.0114,22.9921,92.3154,83.3109,0.096528,0,0,7755.17,2961.25,4.2003
26,289565,2010-12-09 21:00:05,0.000522585,3.43636,23.9147,23.8939,95.9437,86.568,0.0933678,0,0,7749.99,2952.64,4.2003
27,300600,2010-12-10 00:04:01,0.000883803,3.40188,24.8189,24.8058,99.5738,89.8754,0.0940945,0,0,7688.75,2985.76,4.2003
28,311672,2010-12-10 03:08:35,0.00106441,3.39848,25.7312,25.719,103.232,93.1893,0.0947342,0,0,7722.28,2990.13,4.20014
29,322661,2010-12-10 06:11:45,0.000883803,3.42713,26.6434,26.624,106.889,96.4641,0.0956303,0,0,7665,2963.57,4.20014
30,333718,2010-12-10 09:16:03,0.000883803,3.43717,27.5462,27.5239,110.515,99.7144,0.0963536,0,0,7750.22,2946.52,4.2003
31,344747,2010-12-10 12:19:54,0.000522585,3.42633,28.4466,28.4262,114.133,102.978,0.0949057,0,0,7714.91,2954.47,4.2003
32,355794,2010-12-10 15:24:01,0.000703194,3.42616,29.349,29.3282,117.757,106.24,0.0954577,0,0,7732.62,2953.88,4.2003
33,366828,2010-12-10 18:27:57,0.000883803,3.42989,30.2508,30.2287,121.378,109.497,0.0955439,0,0,7725.86,2948.57,4.20014
34,377876,2010-12-10 21:32:06,0.000883803,3.41791,31.1505,31.131,124.992,112.761,0.0954577,0,0,7733.53,2954.39,4.2003
35,388898,2010-12-11 00:35:49,0.000883803,3.40593,32.0549,32.038,128.622,116.05,0.0940945,0,0,7691.48,2969.83,4.20014
36,399925,2010-12-11 03:39:37,0.00106441,3.40544,32.9622,32.9453,132.261,119.341,0.0940094,0,0,7695.84,2970.9,4.20014
37,410948,2010-12-11 06:43:22,0.000522585,3.40366,33.8696,33.8531,135.9,122.634,0.0946487,0,0,7691.48,2971.9,4.20014
38,421961,2010-12-11 09:46:56,0.000522585,3.40269,34.7773,34.7609,139.54,125.928,0.0938397,0,0,7680.23,2972.4,4.20014
39,429884,2010-12-11 11:59:00,0.000883803,3.39443,35.5439,35.5359,142.587,128.714,0.0947342,0,0,5025.46,2537.7,4.20014
40,440993,2010-12-11 15:04:10,0.00106441,3.4001,36.4591,36.4434,146.256,132.008,0.0947342,0,0,7777.15,2971.26,4.20014
41,452006,2010-12-11 18:07:45,0.000703194,3.39848,37.3676,37.3516,149.898,135.306,0.0955439,0,0,7679.75,2973.73,4.20014
42,463013,2010-12-11 21:11:13,0.000883803,3.39702,38.2761,38.2601,153.54,138.606,0.0938397,0,0,7672.28,2974.71,4.20014
43,474013,2010-12-12 00:14:34,0.000703194,3.39621,39.1847,39.1687,157.182,141.906,0.0924722,0,0,7664.72,2974.95,4.20014
44,485009,2010-12-12 03:17:52,0.000522585,3.39589,40.0934,40.0773,160.824,145.206,0.093199,0,0,7661.49,2974.81,4.20014
45,496000,2010-12-12 06:21:04,0.000703194,3.3946,41.0019,40.986,164.465,148.508,0.0940094,0,0,7654.97,2975.26,4.20014
46,506990,2010-12-12 09:24:16,0.000522585,3.39314,41.9108,41.895,168.107,151.811,0.0931148,0,0,7654.6,2976.1,4.20014
47,517966,2010-12-12 12:27:13,0.000522585,3.39427,42.8196,42.8033,171.748,155.111,0.093199,0,0,7641.62,2974.01,4.20014
48,528938,2010-12-12 15:30:06,0.000703194,3.39346,43.7278,43.7116,175.388,158.412,0.091661,0,0,7638.16,2973.85,4.20014
49,539904,2010-12-12 18:32:53,0.000883803,3.39298,44.6362,44.6199,179.027,161.714,0.0939245,0,0,7631.8,2973.87,4.20014
50,550868,2010-12-12 21:35:39,0.00106441,3.39217,45.5445,45.5283,182.666,165.016,0.0945634,0,0,7629.92,2974.2,4.20014