Folder: Make_My_route/battery-analytics-lab/data/raw/calce (part 2)

File: CS2_35_1_28_11_Statistics_1-008.csv
Cycle_Index,Test_Time(s),Date_Time,Current(A),Voltage(V),Charge_Capacity(Ah),Discharge_Capacity(Ah),Charge_Energy(Wh),Discharge_Energy(Wh),Internal_Resistance(Ohm),AC_Impedance(Ohm),ACI_Phase_Angle(Deg),Charge_Time(s),DisCharge_Time(s),Vmax_On_Cycle(V)
1,8710.51,2011-01-24 13:19:26,0.00106441,3.61994,0.603726,0.606471,2.47503,2.12801,0.107884,0,0,6364.36,1986.09,4.2003
2,17201.5,2011-01-24 15:40:58,0.000703194,3.62982,1.21505,1.19933,4.97392,4.20138,0.108695,0,0,6189.38,1941.53,4.2003
3,25521.3,2011-01-24 17:59:39,0.000522585,3.63726,1.80841,1.78265,7.40203,6.23683,0.110928,0,0,6049.47,1910.28,4.20014
4,33778.5,2011-01-24 20:17:17,0.000703194,3.6426,2.39143,2.35888,9.78992,8.24365,0.110118,0,0,6009.9,1887.17,4.2003
5,41987,2011-01-24 22:34:07,0.000883803,3.64633,2.96738,2.92955,12.15,10.2292,0.11194,0,0,5979.52,1868.91,4.2003
6,50154.5,2011-01-25 00:50:16,0.000522585,3.65037,3.53791,3.49529,14.4889,12.195,0.112446,0,0,5954.61,1852.81,4.2003
7,58268.5,2011-01-25 03:05:31,0.000703194,3.65377,4.10328,4.05618,16.8072,14.1425,0.111738,0,0,5916.98,1836.92,4.2003
8,66354.9,2011-01-25 05:20:19,0.000703194,3.65458,4.66416,4.61486,19.1077,16.0818,0.111028,0,0,5896.65,1829.69,4.2003
9,74417.4,2011-01-25 07:34:42,0.000883803,3.65685,5.22276,5.16996,21.3991,18.0073,0.112446,0,0,5884.51,1817.97,4.2003
10,82467.5,2011-01-25 09:48:54,0.000703194,3.65426,5.77839,5.72719,23.6788,19.9429,0.109507,0,0,5865.1,1824.94,4.2003
11,90486.6,2011-01-25 12:02:34,0.000341975,3.65588,6.33581,6.28215,25.9648,21.8705,0.110928,0,0,5841.5,1817.49,4.2003
12,98476.1,2011-01-25 14:15:45,0.000703194,3.6609,6.8907,6.83107,28.241,23.7735,0.111839,0,0,5831.79,1797.63,4.2003
13,106461,2011-01-25 16:28:51,0.000703194,3.65798,7.44007,7.38238,30.496,25.6879,0.111839,0,0,5819.79,1805.5,4.2003
14,114397,2011-01-25 18:41:08,0.000703194,3.65847,7.99145,7.93274,32.7579,27.5985,0.113255,0,0,5773.31,1801.94,4.2003
15,122297,2011-01-25 20:52:49,0.000341975,3.66851,8.54053,8.47026,35.0106,29.4571,0.113357,0,0,5779.7,1760.36,4.2003
16,130166,2011-01-25 23:03:59,0.000341975,3.66996,9.07752,9.00441,37.2165,31.3027,0.11194,0,0,5759.29,1749.38,4.2003
17,138023,2011-01-26 01:14:57,0.000522585,3.66932,9.6116,9.53856,39.4108,33.1485,0.114167,0,0,5747.98,1749.12,4.2003
18,145864,2011-01-26 03:25:40,0.000341975,3.66414,10.1466,10.0781,41.6081,35.0179,0.113357,0,0,5714.12,1766.92,4.2003
19,153723,2011-01-26 05:36:40,0.000703194,3.66252,10.6865,10.6193,43.8244,36.8942,0.112446,0,0,5726.4,1772.28,4.2003
20,161579,2011-01-26 07:47:37,0.00106441,3.66252,11.2278,11.1601,46.046,38.7698,0.112547,0,0,5724.43,1771.28,4.2003
21,169423,2011-01-26 09:58:23,0.000703194,3.66171,11.769,11.7013,48.2668,40.6476,0.112751,0,0,5712.54,1772.24,4.2003
22,177277,2011-01-26 12:09:18,0.00106441,3.65653,12.311,12.2484,50.4907,42.551,0.111738,0,0,5701.93,1791.86,4.2003
23,185119,2011-01-26 14:20:01,0.000883803,3.65847,12.8584,12.792,52.7351,44.4405,0.114167,0,0,5701.86,1779.88,4.2003
24,192919,2011-01-26 16:30:02,0.00106441,3.66187,13.402,13.3303,54.9645,46.3105,0.112547,0,0,5676.9,1763.13,4.2003
25,200670,2011-01-26 18:39:14,0.000883803,3.66527,13.9396,13.8637,57.1703,48.1598,0.11346,0,0,5643.69,1746.75,4.2003
26,208399,2011-01-26 20:48:05,0.000703194,3.66689,14.473,14.3947,59.3598,50,0.11346,0,0,5630.83,1738.77,4.2003
27,216103,2011-01-26 22:56:30,0.000883803,3.66932,15.0039,14.9225,61.5391,51.8277,0.11346,0,0,5615.61,1728.41,4.2003
28,223763,2011-01-27 01:04:11,0.000703194,3.67482,15.5318,15.4432,63.7065,53.6285,0.114977,0,0,5594.24,1705.16,4.2003
29,231366,2011-01-27 03:10:55,0.000883803,3.68146,16.0514,15.9541,65.842,55.3897,0.115185,0,0,5570.2,1673.3,4.2003
30,238919,2011-01-27 05:16:49,0.000522585,3.6834,16.5623,16.4612,67.9428,57.1358,0.115786,0,0,5531.62,1660.55,4.2003
31,246450,2011-01-27 07:22:22,0.000883803,3.68259,17.0697,16.9684,70.0298,58.8837,0.114977,0,0,5510.53,1660.85,4.2003
32,253955,2011-01-27 09:27:27,0.000883803,3.68389,17.5769,17.4731,72.1155,60.6226,0.113665,0,0,5491.56,1653.05,4.20014
33,261426,2011-01-27 11:32:00,0.000883803,3.68858,18.0817,17.9728,74.1914,62.3414,0.11427,0,0,5475.39,1636.02,4.2003
34,268862,2011-01-27 13:35:57,0.000161366,3.68777,18.5812,18.471,76.2465,64.0555,0.115682,0,0,5443.92,1631.44,4.2003
35,276278,2011-01-27 15:39:34,0.000522585,3.69198,19.0794,18.9646,78.2964,65.7513,0.116491,0,0,5439.53,1616.38,4.20014
36,283647,2011-01-27 17:42:24,0.000703194,3.69392,19.5728,19.4551,80.3269,67.4361,0.114477,0,0,5402.19,1606.6,4.20014

File: CS2_35_2_10_11_Statistics_1-008.csv
Cycle_Index,Test_Time(s),Date_Time,Current(A),Voltage(V),Charge_Capacity(Ah),Discharge_Capacity(Ah),Charge_Energy(Wh),Discharge_Energy(Wh),Internal_Resistance(Ohm),AC_Impedance(Ohm),ACI_Phase_Angle(Deg),Charge_Time(s),DisCharge_Time(s),Vmax_On_Cycle(V)
1,3663.96,2011-01-31 11:52:10,0.000522585,3.70703,0.0611695,0.500406,0.256891,1.72137,0.115289,0,0,1665.13,1638.77,4.20062
2,10755.2,2011-01-31 13:50:22,0.000703194,3.71691,0.556212,0.975163,2.29101,3.34653,0.116701,0,0,5176.41,1554.79,4.20014
3,17712.7,2011-01-31 15:46:21,0.000703194,3.7208,1.02844,1.43967,4.23465,4.93349,0.118322,0,0,5076.18,1521.22,4.20014
4,24598.5,2011-01-31 17:41:08,0.000703194,3.7208,1.49148,1.89991,6.14158,6.50577,0.119025,0,0,5018.48,1507.26,4.20014
5,31420.8,2011-01-31 19:34:51,0.000703194,3.72986,1.95029,2.3425,8.03156,8.01165,0.119727,0,0,5012.6,1449.55,4.20014
6,38117.5,2011-01-31 21:26:29,0.000341975,3.73375,2.39169,2.77489,9.85189,9.4804,0.119727,0,0,4920.49,1416.13,4.20014
7,44724.5,2011-01-31 23:16:37,0.000522585,3.73666,2.82325,3.19954,11.6326,10.9214,0.120753,0,0,4856.26,1390.76,4.20014
8,51258.2,2011-02-01 01:05:32,0.000703194,3.7386,3.24725,3.6178,13.3829,12.3397,0.119133,0,0,4803.78,1369.83,4.20014
9,57741,2011-02-01 02:53:36,0.000522585,3.74038,3.66513,4.03055,15.1084,13.7384,0.119835,0,0,4770.81,1351.85,4.20014
10,64166,2011-02-01 04:40:42,0.000883803,3.74233,4.07745,4.43791,16.8114,15.118,0.119943,0,0,4730.83,1334.18,4.20014
11,70527.3,2011-02-01 06:26:45,0.000883803,3.74637,4.48447,4.83623,18.493,16.4656,0.121344,0,0,4696.58,1304.57,4.20014
12,76821.1,2011-02-01 08:11:40,0.000341975,3.74589,4.88255,5.2336,20.1384,17.81,0.119835,0,0,4632.28,1301.52,4.20014
13,83113.6,2011-02-01 09:56:33,0.000703194,3.74492,5.27996,5.63112,21.7811,19.1554,0.122264,0,0,4630.42,1301.97,4.20014
14,89410.3,2011-02-01 11:41:31,0.000522585,3.74152,5.67778,6.03349,23.4252,20.5196,0.120052,0,0,4618.81,1317.84,4.20014
15,95726.1,2011-02-01 13:26:48,0.000883803,3.74168,6.08028,6.43482,25.0882,21.881,0.119943,0,0,4641.25,1314.46,4.20014
16,102019,2011-02-01 15:11:42,0.000522585,3.74281,6.48157,6.83275,26.7462,23.2311,0.120644,0,0,4629.42,1303.28,4.20014
17,108273,2011-02-01 16:55:58,0.000883803,3.74394,6.87941,7.22783,28.3902,24.5713,0.120052,0,0,4600.22,1293.77,4.20014
18,114490,2011-02-01 18:39:36,0.000703194,3.74767,7.27429,7.61484,30.0224,25.883,0.120753,0,0,4589.62,1267.54,4.20014
19,120625,2011-02-01 20:21:52,0.000341975,3.75107,7.66082,7.99431,31.6208,27.1667,0.121564,0,0,4531.91,1242.64,4.20014
20,126695,2011-02-01 22:03:03,0.000522585,3.75333,8.04009,8.36813,33.1898,28.4306,0.122264,0,0,4485.47,1224.4,4.2003
21,129315,2011-02-01 22:46:44,0.000703194,3.74394,8.25007,8.63557,34.0485,29.3306,0.124806,0,0,1383.96,876.079,4.20014
22,135909,2011-02-02 00:36:40,0.000161366,3.7556,8.67982,9.00414,35.8237,30.5764,0.122264,0,0,5027.04,1207.19,4.20014
23,141900,2011-02-02 02:16:32,0.000522585,3.75657,9.049,9.36928,37.3518,31.81,0.121564,0,0,4435.26,1195.92,4.20014
24,147834,2011-02-02 03:55:27,0.000341975,3.75819,9.41414,9.72986,38.8633,33.0276,0.122596,0,0,4392.3,1180.97,4.20014
25,150351,2011-02-02 04:37:25,0.000341975,3.74718,9.61267,9.98869,39.6758,33.8976,0.125616,0,0,1309.2,847.845,4.20014
26,153099,2011-02-02 05:23:14,0.000883803,3.75285,9.85287,10.2349,40.6565,34.7252,0.127007,0,0,1581.86,806.567,4.20014
27,159714,2011-02-02 07:13:30,0.000341975,3.76127,10.277,10.5883,42.4098,35.9172,0.122264,0,0,5097.6,1157.11,4.20014
28,165582,2011-02-02 08:51:20,0.000161366,3.76191,10.6317,10.9388,43.8791,37.0994,0.122962,0,0,4359.86,1148.02,4.20014
29,171401,2011-02-02 10:28:20,0.000522585,3.75916,10.9827,11.2932,45.3334,38.2945,0.122962,0,0,4298.57,1160.47,4.20014
30,177226,2011-02-02 12:05:26,0.000341975,3.75754,11.3375,11.65,46.8025,39.5001,0.120753,0,0,4296.32,1168.67,4.20014
31,179721,2011-02-02 12:47:02,0.000161366,3.74718,11.5339,11.9063,47.6064,40.3624,0.126198,0,0,1295.34,839.566,4.20014
32,186170,2011-02-02 14:34:32,0.000161366,3.75479,11.9498,12.268,49.3253,41.5861,0.122264,0,0,4903.92,1184.69,4.20014
33,192068,2011-02-02 16:12:51,0.000522585,3.75431,12.3123,12.6297,50.8257,42.8089,0.121454,0,0,4353.67,1184.53,4.20014
34,197938,2011-02-02 17:50:43,0.000703194,3.7556,12.6739,12.9878,52.3224,44.0188,0.121674,0,0,4337.05,1172.76,4.20014
35,203751,2011-02-02 19:27:37,0.000341975,3.7611,13.0314,13.3353,53.8027,45.1904,0.122374,0,0,4314.74,1138.07,4.20014
36,209461,2011-02-02 21:02:48,0.000703194,3.76693,13.3779,13.671,55.2385,46.3194,0.121564,0,0,4250.21,1099.59,4.20014
37,215081,2011-02-02 22:36:29,0.000341975,3.76823,13.7133,14.0033,56.629,47.4359,0.122485,0,0,4171.63,1088.57,4.20014
38,220663,2011-02-03 00:09:32,0.000883803,3.76985,14.0454,14.3319,58.0057,48.5391,0.121674,0,0,4145.45,1076.2,4.20014
39,226191,2011-02-03 01:41:42,0.000341975,3.77098,14.3735,14.6571,59.3666,49.6301,0.122962,0,0,4103.18,1065.25,4.20014
40,231692,2011-02-03 03:13:24,0.000161366,3.77179,14.6986,14.9798,60.7147,50.7122,0.122374,0,0,4084.13,1056.98,4.20014
41,237168,2011-02-03 04:44:41,0.000522585,3.77292,15.0211,15.2998,62.0528,51.7847,0.122264,0,0,4067.46,1047.81,4.20014
42,242604,2011-02-03 06:15:18,0.000341975,3.77454,15.3408,15.6164,63.3788,52.845,0.122374,0,0,4039.52,1036.51,4.20014
43,248007,2011-02-03 07:45:22,0.000522585,3.77584,15.6571,15.9298,64.6913,53.8945,0.122374,0,0,4016.24,1026.7,4.20014
44,253392,2011-02-03 09:15:08,0.000703194,3.77486,15.9705,16.2445,65.9921,54.9486,0.122962,0,0,3993.9,1030.86,4.20014
45,258782,2011-02-03 10:45:00,0.000161366,3.77341,16.2853,16.5609,67.2982,56.0086,0.122374,0,0,3994.43,1036.04,4.20014
46,264184,2011-02-03 12:15:03,0.000703194,3.77308,16.6017,16.8777,68.6113,57.0717,0.120972,0,0,4003.76,1037.73,4.20014
47,269568,2011-02-03 13:44:48,0.000522585,3.77454,16.9184,17.1915,69.9249,58.1236,0.124693,0,0,3996.09,1027.67,4.20014
48,274918,2011-02-03 15:13:59,0.000703194,3.77713,17.2318,17.5,71.2254,59.1568,0.124468,0,0,3980.09,1010.31,4.20014
49,280236,2011-02-03 16:42:39,0.000522585,3.77584,17.5402,17.81,72.5059,60.195,0.123883,0,0,3942.91,1015.3,4.20014
50,285528,2011-02-03 18:10:51,0.000161366,3.77924,17.8499,18.1136,73.7911,61.2111,0.123185,0,0,3936.73,994.581,4.20014

File: CS2_35_10_29_10_Statistics_1-008.csv
Cycle_Index,Test_Time(s),Date_Time,Current(A),Voltage(V),Charge_Capacity(Ah),Discharge_Capacity(Ah),Charge_Energy(Wh),Discharge_Energy(Wh),Internal_Resistance(Ohm),AC_Impedance(Ohm),ACI_Phase_Angle(Deg),Charge_Time(s),DisCharge_Time(s),Vmax_On_Cycle(V)
1,11598.4,2010-10-22 16:36:44,0.000883803,3.38925,0.971346,0.976537,3.8987,3.54303,0.093199,0,0,8040.45,3197.85,4.20014
2,23211.6,2010-10-22 19:50:19,0.000703194,3.38666,1.94768,1.95186,7.80934,7.08121,0.0939245,0,0,8059.24,3193.82,4.20014
3,34759.4,2010-10-22 23:02:48,0.000703194,3.34732,2.92497,2.93664,11.7207,10.6688,0.0923886,0,0,7963.27,3224.53,4.20014
4,46333.8,2010-10-23 02:15:43,0.000703194,3.34198,3.91,3.92277,15.6572,14.2639,0.0930308,0,0,7985.32,3228.94,4.20014
5,57904.5,2010-10-23 05:28:36,0.000703194,3.34117,4.89617,4.90911,19.5972,17.8605,0.0915781,0,0,7981.27,3229.4,4.20014
6,69470.3,2010-10-23 08:41:22,0.000522585,3.34036,5.88246,5.89553,23.5373,21.4579,0.0907677,0,0,7976.13,3229.55,4.20014
7,81028.9,2010-10-23 11:54:02,0.000703194,3.33939,6.86877,6.88205,27.477,25.0563,0.0930308,0,0,7968.51,3230.08,4.20014
8,92581.1,2010-10-23 15:06:36,0.000522585,3.33162,7.85551,7.87044,31.4176,28.6646,0.0907677,0,0,7955.93,3236.17,4.20014
9,104128,2010-10-23 18:19:04,0.000703194,3.32919,8.84374,8.85924,35.3629,32.2754,0.0914954,0,0,7949.76,3237.5,4.20014
10,115673,2010-10-23 21:31:30,0.000341975,3.32741,9.83248,9.84838,39.3095,35.888,0.0900387,0,0,7946.15,3238.53,4.20014
11,127219,2010-10-24 00:43:58,0.000703194,3.32725,10.8216,10.8377,43.2571,39.5019,0.0906857,0,0,7946.9,3239.11,4.20014
12,138764,2010-10-24 03:56:24,0.000703194,3.32628,11.8107,11.8272,47.2049,43.1166,0.0914954,0,0,7945.43,3239.64,4.2003
13,150302,2010-10-24 07:08:43,0.000341975,3.32531,12.8,12.8168,51.1526,46.7322,0.0914954,0,0,7937.92,3239.97,4.20014
14,161835,2010-10-24 10:20:57,0.000703194,3.32466,13.7894,13.8064,55.1005,50.3483,0.0906857,0,0,7932.62,3240.11,4.20014
15,173371,2010-10-24 13:33:14,0.000883803,3.32369,14.7789,14.7962,59.0488,53.9656,0.0914954,0,0,7934.64,3240.77,4.20014
16,184899,2010-10-24 16:45:23,0.000522585,3.32191,15.7684,15.7863,62.9967,57.5842,0.0900387,0,0,7926.55,3241.25,4.20014
17,196419,2010-10-24 19:57:25,0.000341975,3.31997,16.7584,16.7768,66.9459,61.2054,0.0914128,0,0,7918.08,3242.69,4.20014
18,207945,2010-10-24 23:09:32,0.000522585,3.3211,17.7486,17.767,70.8958,64.8252,0.0914128,0,0,7923.77,3241.74,4.20014
19,219464,2010-10-25 02:21:33,0.000161366,3.32029,18.7385,18.7573,74.8444,68.4451,0.0922218,0,0,7917.64,3241.78,4.20014
20,230923,2010-10-25 05:32:32,0.000341975,3.36691,19.7262,19.7354,78.7837,72.0031,0.0923886,0,0,7895.69,3202.46,4.20014
21,242452,2010-10-25 08:44:43,0.000522585,3.3797,20.7026,20.7084,82.6899,75.5358,0.0923051,0,0,7983.5,3185.71,4.20014
22,253959,2010-10-25 11:56:31,0.000522585,3.37404,21.6752,21.6817,86.5832,79.0706,0.0944782,0,0,7959.78,3187.03,4.20014
23,265472,2010-10-25 15:08:25,0.000341975,3.37306,22.6483,22.6548,90.4781,82.6046,0.0952857,0,0,7967.12,3186.12,4.20014
24,276975,2010-10-25 18:20:09,0.000341975,3.37824,23.6207,23.626,94.3705,86.129,0.0940094,0,0,7962.56,3179.87,4.20014
25,288542,2010-10-25 21:32:58,0.000341975,3.34214,24.5926,24.6052,98.2632,89.6953,0.0923051,0,0,8001.11,3206.03,4.20014
26,300055,2010-10-26 00:44:52,0.000522585,3.33356,25.5731,25.5879,102.181,93.28,0.0922218,0,0,7935.38,3217.52,4.20014
27,308831,2010-10-26 03:11:10,0.000522585,3.32337,26.4273,26.448,105.566,96.3899,0.0915781,0,0,5600.75,2815.69,4.20014
28,320430,2010-10-26 06:24:29,0.000161366,3.37128,27.4129,27.4207,109.502,99.924,0.0931148,0,0,8052.91,3185.15,4.20014
29,331965,2010-10-26 09:36:46,0.000522585,3.37582,28.3851,28.3914,113.395,103.447,0.0915781,0,0,7997.45,3178.2,4.20014
30,343472,2010-10-26 12:48:34,0.000883803,3.37177,29.356,29.363,117.282,106.976,0.0931148,0,0,7964.86,3181.71,4.2003
31,354987,2010-10-26 16:00:30,0.000341975,3.38164,30.327,30.3321,121.17,110.492,0.0939245,0,0,7981.14,3173.45,4.20014
32,366492,2010-10-26 19:12:16,0.000703194,3.38828,31.295,31.2987,125.046,113.995,0.0933678,0,0,7979.87,3164.98,4.2003
33,377971,2010-10-26 22:23:36,0.000341975,3.33437,32.2632,32.278,128.924,117.564,0.0923051,0,0,7912.42,3206.59,4.20014
34,389481,2010-10-27 01:35:28,0.000522585,3.32725,33.243,33.26,132.838,121.147,0.0915781,0,0,7934.99,3215.19,4.20014
35,400962,2010-10-27 04:46:50,0.000703194,3.36189,34.2249,34.2356,136.759,124.699,0.0931148,0,0,7926.29,3194.62,4.20014
36,412472,2010-10-27 07:58:42,0.000522585,3.38359,35.1971,35.2032,140.649,128.208,0.0939245,0,0,7981.94,3168.43,4.20014
37,423957,2010-10-27 11:10:08,0.000883803,3.3763,36.1644,36.1719,144.522,131.724,0.0924722,0,0,7952.45,3172.06,4.20014
38,435454,2010-10-27 14:21:46,0.000522585,3.36983,37.1327,37.1417,148.399,135.245,0.0945634,0,0,7961.34,3175.31,4.20014
39,446965,2010-10-27 17:33:39,0.000341975,3.37064,38.102,38.1106,152.28,138.762,0.0939245,0,0,7979.03,3172.62,4.20014
40,458491,2010-10-27 20:45:46,0.000883803,3.34231,39.0707,39.0845,156.158,142.305,0.0923886,0,0,7976.62,3189.37,4.2003
41,469992,2010-10-27 23:57:28,0.000703194,3.32466,40.0476,40.065,160.061,145.882,0.0931148,0,0,7930.4,3210.45,4.20014
42,481500,2010-10-28 03:09:18,0.000703194,3.32061,41.0287,41.0468,163.979,149.467,0.0914954,0,0,7933.15,3214.96,4.20014
43,493036,2010-10-28 06:21:35,0.000883803,3.36627,42.0086,42.0176,167.892,152.995,0.0924722,0,0,7996.52,3179.08,4.20014
44,504548,2010-10-28 09:33:29,0.00106441,3.37128,42.9788,42.9858,171.777,156.51,0.0923886,0,0,7981.3,3170.76,4.20014
45,516048,2010-10-28 12:45:10,0.000703194,3.36659,43.9472,43.9544,175.654,160.027,0.0939245,0,0,7967.44,3172.07,4.20014
46,527554,2010-10-28 15:56:57,0.000522585,3.36869,44.9157,44.9222,179.531,163.54,0.0945634,0,0,7977,3169.06,4.20014
47,539057,2010-10-28 19:08:41,0.000703194,3.37177,45.8827,45.8884,183.403,167.045,0.0939245,0,0,7978.4,3164.09,4.20014
48,550534,2010-10-28 22:20:00,0.000341975,3.35202,46.8506,46.8606,187.28,170.585,0.0930308,0,0,7934.13,3183.41,4.20014
49,562072,2010-10-29 01:32:18,0.000522585,3.37517,47.8204,47.8254,191.163,174.083,0.0923886,0,0,8017.75,3159.36,4.20014
50,573586,2010-10-29 04:44:14,0.000883803,3.37695,48.7847,48.7891,195.026,177.577,0.0939245,0,0,7998.26,3155.79,4.20014

File: CS2_35_11_01_10_Statistics_1-008.csv
Cycle_Index,Test_Time(s),Date_Time,Current(A),Voltage(V),Charge_Capacity(Ah),Discharge_Capacity(Ah),Charge_Energy(Wh),Discharge_Energy(Wh),Internal_Resistance(Ohm),AC_Impedance(Ohm),ACI_Phase_Angle(Deg),Charge_Time(s),DisCharge_Time(s),Vmax_On_Cycle(V)
1,11574.8,2010-10-29 13:10:29,0.00106441,3.3776,0.963638,0.970339,3.87036,3.51987,0.0923886,0,0,8037.09,3177.57,4.20014
2,23133.8,2010-10-29 16:23:10,0.000703194,3.3763,1.93442,1.93959,7.75874,7.03527,0.093199,0,0,8025.01,3173.95,4.20014
3,34685.8,2010-10-29 19:35:43,0.000883803,3.37873,2.90295,2.90671,11.6385,10.5407,0.0930308,0,0,8025.14,3166.81,4.20014
4,46178.6,2010-10-29 22:47:17,0.000883803,3.34036,3.87189,3.88259,15.5189,14.0928,0.0937551,0,0,7937.25,3195.43,4.20014
5,57700.2,2010-10-30 01:59:20,0.000883803,3.33502,4.8483,4.86004,19.4225,17.6534,0.0937551,0,0,7961.29,3200.28,4.20014
6,69215.7,2010-10-30 05:11:17,0.000703194,3.33146,5.82585,5.8382,23.3294,21.218,0.0915781,0,0,7952.71,3202.73,4.20014
7,80727.4,2010-10-30 08:23:10,0.000522585,3.32936,6.80402,6.81676,27.238,24.785,0.0923886,0,0,7947.55,3204,4.20014
8,92236.1,2010-10-30 11:35:00,0.000703194,3.32822,7.7825,7.7955,31.1474,28.3532,0.0920556,0,0,7944.1,3204.59,4.20014
9,103747,2010-10-30 14:46:52,0.000703194,3.32596,8.76123,8.77465,35.0574,31.9236,0.0930308,0,0,7944.77,3205.92,4.20014

File: CS2_35_11_08_10_Statistics_1-008.csv
Cycle_Index,Test_Time(s),Date_Time,Current(A),Voltage(V),Charge_Capacity(Ah),Discharge_Capacity(Ah),Charge_Energy(Wh),Discharge_Energy(Wh),Internal_Resistance(Ohm),AC_Impedance(Ohm),ACI_Phase_Angle(Deg),Charge_Time(s),DisCharge_Time(s),Vmax_On_Cycle(V)
1,11150.7,2010-11-01 17:29:20,0.000883803,3.35979,0.92346,0.980763,3.71049,3.57299,0.0922218,0,0,7579.41,3211.26,4.20014
2,22658.4,2010-11-01 20:41:09,0.000341975,3.33599,1.90566,1.96608,7.63553,7.16706,0.089876,0,0,7921.45,3226.1,4.20014
3,34166.4,2010-11-01 23:52:58,0.000341975,3.3279,2.89206,2.9543,11.5739,10.7758,0.0914128,0,0,7912.37,3235.57,4.20014
4,45693.2,2010-11-02 03:05:06,0.000883803,3.3245,3.88047,3.94346,15.5192,14.388,0.0914128,0,0,7928.32,3238.42,4.20014
5,57246.8,2010-11-02 06:17:41,0.000341975,3.36578,4.86798,4.9235,19.4615,17.9528,0.0940094,0,0,7984.71,3208.81,4.20014
6,68770.7,2010-11-02 09:29:46,0.000703194,3.36011,5.84784,5.90349,23.3803,21.5167,0.0939245,0,0,7955.12,3208.66,4.20014
7,80296.2,2010-11-02 12:41:53,0.000703194,3.34279,6.82819,6.88639,27.2996,25.0962,0.093199,0,0,7947.08,3218.35,4.20014
8,91818.7,2010-11-02 15:53:57,0.000703194,3.33308,7.81156,7.87134,31.2283,28.6871,0.0938397,0,0,7937.77,3224.68,4.20014
9,103331,2010-11-02 19:05:50,0.000341975,3.33243,8.79646,8.85611,35.1611,32.277,0.0924722,0,0,7928.13,3224.31,4.20014
10,114834,2010-11-02 22:17:34,0.000522585,3.30815,9.78162,9.8453,39.0948,35.89,0.0923051,0,0,7904.1,3238.69,4.20014
11,126356,2010-11-03 01:29:37,0.000703194,3.30426,10.7709,10.8353,43.0414,39.5074,0.0922218,0,0,7920.42,3241.34,4.20014
12,137859,2010-11-03 04:41:21,0.000703194,3.33308,11.7608,11.8205,46.9901,43.1011,0.0939245,0,0,7917.15,3225.48,4.20014
13,149381,2010-11-03 07:53:25,0.000703194,3.33939,12.744,12.802,50.9181,46.675,0.093199,0,0,7949.08,3213.63,4.20014
14,160897,2010-11-03 11:05:22,0.000522585,3.33454,13.725,13.7833,54.8385,50.2478,0.0939245,0,0,7942.52,3213.06,4.20014
15,172393,2010-11-03 14:16:59,0.000522585,3.32207,14.7069,14.7672,58.7603,53.8354,0.0946487,0,0,7913.94,3221.55,4.20014
16,183907,2010-11-03 17:28:54,0.000883803,3.32175,15.6907,15.751,62.6886,57.4226,0.0939245,0,0,7932.99,3221,4.20014
17,195429,2010-11-03 20:40:57,0.000161366,3.3088,16.674,16.7363,66.6156,61.0166,0.0938397,0,0,7935.72,3226.03,4.20014
18,206941,2010-11-03 23:52:51,0.000341975,3.3007,17.66,17.724,70.5506,64.6241,0.0931148,0,0,7918.67,3233.5,4.20014
19,218453,2010-11-04 03:04:44,0.000522585,3.29908,18.6475,18.712,74.4903,68.2336,0.0923886,0,0,7917.83,3234.59,4.20014
20,229990,2010-11-04 06:17:02,0.000703194,3.33713,19.6338,19.6917,78.4253,71.8001,0.0954577,0,0,7969.2,3207.62,4.20014
21,241500,2010-11-04 09:28:54,0.000522585,3.33421,20.6132,20.6712,82.3399,75.3663,0.0948198,0,0,7942.77,3207.18,4.20014
22,252994,2010-11-04 12:40:29,0.000883803,3.33389,21.5925,21.6503,86.2529,78.9307,0.0948198,0,0,7928.57,3205.64,4.20014
23,264495,2010-11-04 15:52:11,0.000883803,3.33664,22.5713,22.6283,90.1643,82.4906,0.0955439,0,0,7938.03,3202.31,4.20014
24,275989,2010-11-04 19:03:46,0.000161366,3.34328,23.5487,23.6044,94.0705,86.0403,0.0961798,0,0,7938.36,3195.87,4.20014
25,287474,2010-11-04 22:15:12,0.000522585,3.30912,24.5255,24.587,97.9758,89.6249,0.0944782,0,0,7907.58,3217.05,4.20014
26,298973,2010-11-05 01:26:53,0.000522585,3.30443,25.5084,25.571,101.899,93.2171,0.0932833,0,0,7917.67,3221.84,4.20014
27,310452,2010-11-05 04:38:12,0.000161366,3.33033,26.4924,26.5508,105.826,96.789,0.0954577,0,0,7910.38,3207.86,4.20014
28,321956,2010-11-05 07:49:57,0.000703194,3.34182,27.4702,27.5262,109.734,100.336,0.0962666,0,0,7949.94,3193.7,4.20014
29,333441,2010-11-05 11:01:24,0.000883803,3.33535,28.4456,28.5025,113.633,103.89,0.0955439,0,0,7928.78,3196.43,4.20014
30,344922,2010-11-05 14:12:47,0.000522585,3.32984,29.422,29.4797,117.535,107.448,0.0939245,0,0,7922.07,3199.51,4.20014
31,356403,2010-11-05 17:24:08,0.000341975,3.3211,30.3993,30.4585,121.44,111.015,0.0947342,0,0,7915.47,3204.75,4.20014
32,367910,2010-11-05 20:35:57,0.000883803,3.31203,31.3773,31.4381,125.347,114.585,0.0940094,0,0,7939.86,3207.43,4.20014
33,379389,2010-11-05 23:47:17,0.000341975,3.30038,32.3581,32.4212,129.262,118.176,0.0939245,0,0,7900.12,3218.59,4.20014
34,390874,2010-11-06 02:58:43,0.000522585,3.29892,33.3412,33.4049,133.185,121.769,0.093199,0,0,7904.59,3220.42,4.20014
35,402350,2010-11-06 06:10:00,0.000341975,3.29746,34.3248,34.3889,137.109,125.364,0.0923051,0,0,7894.38,3221.47,4.20014
36,413829,2010-11-06 09:21:21,0.000522585,3.29763,35.3087,35.3731,141.034,128.96,0.0939245,0,0,7897.22,3221.95,4.20014
37,425306,2010-11-06 12:32:38,0.000703194,3.29763,36.2926,36.3572,144.958,132.557,0.093199,0,0,7894.68,3221.86,4.20014
38,436784,2010-11-06 15:43:57,0.000522585,3.29309,37.2768,37.3424,148.884,136.158,0.0931148,0,0,7892.43,3225.25,4.20014
39,448257,2010-11-06 18:55:12,0.000161366,3.29212,38.262,38.3279,152.812,139.762,0.0939245,0,0,7886.71,3226.44,4.20014
40,459727,2010-11-06 22:06:23,0.000703194,3.2918,39.2474,39.3136,156.741,143.367,0.091661,0,0,7883.01,3226.94,4.2003
41,471193,2010-11-07 01:17:30,0.000522585,3.29147,40.2329,40.2993,160.67,146.972,0.091744,0,0,7878.64,3226.93,4.20014
42,482655,2010-11-07 04:28:34,0.000341975,3.29147,41.2183,41.285,164.598,150.577,0.0940094,0,0,7875.82,3226.83,4.20014
43,494105,2010-11-07 07:39:24,0.000341975,3.29147,42.2036,42.2703,168.526,154.182,0.093199,0,0,7863.5,3225.88,4.20014
44,505565,2010-11-07 10:50:25,0.000703194,3.2918,43.1889,43.2558,172.454,157.786,0.0938397,0,0,7873.57,3226.22,4.20014
45,517023,2010-11-07 14:01:25,0.000883803,3.29212,44.1741,44.2411,176.381,161.39,0.0924722,0,0,7873.03,3225.38,4.20014
46,528480,2010-11-07 17:12:23,0.000703194,3.29164,45.1592,45.2264,180.308,164.994,0.0938397,0,0,7870.67,3225.69,4.20014
47,539933,2010-11-07 20:23:17,0.000703194,3.29131,46.1443,46.2118,184.235,168.599,0.0939245,0,0,7867.12,3225.74,4.20014
48,551385,2010-11-07 23:34:10,0.000883803,3.29131,47.1294,47.1971,188.162,172.204,0.0931148,0,0,7866.81,3225.58,4.20014
49,562834,2010-11-08 02:45:00,0.000703194,3.29196,48.1143,48.1821,192.088,175.807,0.0931148,0,0,7864.14,3224.57,4.20014
50,574283,2010-11-08 05:55:51,0.000341975,3.32288,49.0971,49.1594,196.005,179.371,0.0947342,0,0,7889.29,3200.03,4.20014